{
  "resourceType": "Bundle",
  "id": "transaction-bundle-example-covid",
  "type": "transaction",
  "entry": [
    {
      "fullUrl": "urn:uuid:123e4567-e89b-12d3-a456-426614174000",
      "resource": {
        "resourceType": "Patient",
        "id": "patient-saga-anderson",
        "identifier": [
          {
            "use": "usual",
            "system": "http://terminology.hl7.org/CodeSystem/v2-0203",
            "value": "MRN123456",
            "type": {
              "coding": [
                {
                  "system": "http://terminology.hl7.org/CodeSystem/v2-0203",
                  "code": "MR",
                  "display": "Medical Record Number"
                }
              ]
            }
          },
          {
            "use": "official",
            "system": "http://terminology.hl7.org/CodeSystem/v2-0203",
            "value": "SSN987-65-4320",
            "type": {
              "coding": [
                {
                  "system": "http://terminology.hl7.org/CodeSystem/v2-0203",
                  "code": "SS",
                  "display": "Social Security Number"
                }
              ]
            }
          }
        ],
        "name": [
          {
            "use": "official",
            "text": "Ms. Saga Anderson",
            "family": "Anderson",
            "given": ["Saga"],
            "prefix": ["Ms."]
          }
        ],
        "telecom": [
          {
            "system": "phone",
            "value": "206-555-0123",
            "use": "home"
          }
        ],
        "gender": "female",
        "birthDate": "1987-11-11",
        "address": [
          {
            "use": "home",
            "type": "both",
            "text": "6 Watery Lighthouse Trailer Park Way, Unit #2, Watery, WA, 98440",
            "line": ["6 Watery Lighthouse Trailer Park Way", "Unit #2"],
            "city": "Watery",
            "state": "WA",
            "postalCode": "98440",
            "country": "United States"
          }
        ],
        "text": {
          "status": "generated",
          "div": "<div xmlns=\"http://www.w3.org/1999/xhtml\">Generated Narrative for Patient</div>"
        }
      },
      "request": {
        "method": "POST",
        "url": "Patient"
      }
    },
    {
      "fullUrl": "urn:uuid:234e4567-e89b-12d3-a456-426614174001",
      "resource": {
        "resourceType": "Practitioner",
        "id": "practitioner-emma-nelson",
        "name": [
          {
            "family": "Nelson",
            "given": ["Emma"],
            "prefix": ["Dr."]
          }
        ],
        "text": {
          "status": "generated",
          "div": "<div xmlns=\"http://www.w3.org/1999/xhtml\">Generated Narrative for Practitioner</div>"
        }
      },
      "request": {
        "method": "POST",
        "url": "Practitioner"
      }
    },
    {
      "fullUrl": "urn:uuid:345e4567-e89b-12d3-a456-426614174002",
      "resource": {
        "resourceType": "Organization",
        "id": "organization-nelson-family-practice",
        "name": "Nelson Family Practice",
        "address": [
          {
            "line": ["123 Harbor St"],
            "city": "Bright Falls",
            "state": "WA",
            "postalCode": "98440",
            "country": "United States"
          }
        ],
        "telecom": [
          {
            "system": "phone",
            "value": "206-555-0199",
            "use": "work"
          }
        ],
        "text": {
          "status": "generated",
          "div": "<div xmlns=\"http://www.w3.org/1999/xhtml\">Generated Narrative for Organization</div>"
        }
      },
      "request": {
        "method": "POST",
        "url": "Organization"
      }
    },
    {
      "fullUrl": "urn:uuid:456e4567-e89b-12d3-a456-426614174003",
      "resource": {
        "resourceType": "Composition",
        "id": "composition-eicr-covid",
        "status": "final",
        "type": {
          "coding": [
            {
              "system": "http://loinc.org",
              "code": "55751-2",
              "display": "Public health Case report"
            }
          ]
        },
        "subject": {
          "reference": "urn:uuid:123e4567-e89b-12d3-a456-426614174000"
        },
        "encounter": {
          "reference": "urn:uuid:789e4567-e89b-12d3-a456-426614174006"
        },
        "date": "2021-08-02T22:13:23Z",
        "author": [
          {
            "reference": "urn:uuid:234e4567-e89b-12d3-a456-426614174001"
          }
        ],
        "title": "Public Health Case Report for COVID-19",
        "custodian": {
          "reference": "urn:uuid:345e4567-e89b-12d3-a456-426614174002"
        },
        "text": {
          "status": "generated",
          "div": "<div xmlns=\"http://www.w3.org/1999/xhtml\">Generated Narrative for Composition</div>"
        }
      },
      "request": {
        "method": "POST",
        "url": "Composition/composition-eicr-covid"
      }
    },
    {
      "fullUrl": "urn:uuid:567e4567-e89b-12d3-a456-426614174004",
      "resource": {
        "resourceType": "Observation",
        "id": "observation-case-status",
        "status": "final",
        "code": {
          "coding": [
            {
              "system": "http://loinc.org",
              "code": "75325-1",
              "display": "Case status"
            }
          ]
        },
        "subject": {
          "reference": "urn:uuid:123e4567-e89b-12d3-a456-426614174000"
        },
        "performer": [
          {
            "reference": "urn:uuid:234e4567-e89b-12d3-a456-426614174001"
          }
        ],
        "effectiveDateTime": "2021-07-30T14:00:00Z",
        "valueCodeableConcept": {
          "coding": [
            {
              "system": "http://snomed.info/sct",
              "code": "410605003",
              "display": "Confirmed present"
            }
          ]
        },
        "text": {
          "status": "generated",
          "div": "<div xmlns=\"http://www.w3.org/1999/xhtml\">Generated Narrative for Observation</div>"
        }
      },
      "request": {
        "method": "POST",
        "url": "Observation"
      }
    },
    {
      "fullUrl": "urn:uuid:678e4567-e89b-12d3-a456-426614174005",
      "resource": {
        "resourceType": "Condition",
        "id": "condition-covid19",
        "subject": {
          "reference": "urn:uuid:123e4567-e89b-12d3-a456-426614174000"
        },
        "text": {
          "status": "generated",
          "div": "<div xmlns=\"http://www.w3.org/1999/xhtml\">Generated Narrative for Condition</div>"
        }
      },
      "request": {
        "method": "POST",
        "url": "Condition"
      }
    },
    {
      "fullUrl": "urn:uuid:789e4567-e89b-12d3-a456-426614174006",
      "resource": {
        "resourceType": "Encounter",
        "id": "encounter-eicr-saga-anderson",
        "status": "finished",
        "class": {
          "system": "http://terminology.hl7.org/CodeSystem/v3-ActCode",
          "code": "AMB",
          "display": "Ambulatory"
        },
        "subject": {
          "reference": "urn:uuid:123e4567-e89b-12d3-a456-426614174000"
        },
        "text": {
          "status": "generated",
          "div": "<div xmlns=\"http://www.w3.org/1999/xhtml\">Generated Narrative for Encounter</div>"
        }
      },
      "request": {
        "method": "POST",
        "url": "Encounter"
      }
    }
  ]
}
