{
  "response": {
    "Status": "OK",
    "FhirResource": {
      "resourceType": "Bundle",
      "type": "batch",
      "entry": [
        {
          "fullUrl": "urn:uuid:b637297b-ed15-40cb-ba22-a3b4bc286a88",
          "resource": {
            "resourceType": "Composition",
            "id": "b637297b-ed15-40cb-ba22-a3b4bc286a88",
            "meta": {
              "profile": [
                "http://hl7.org/fhir/us/ecr/StructureDefinition/eicr-composition"
              ],
              "source": [
                "ecr"
              ]
            },
            "identifier": [
              {
                "use": "official",
                "type": {
                  "coding": [
                    {
                      "code": "55751-2",
                      "display": "Public Health Case Report",
                      "system": "http://loinc.org"
                    }
                  ]
                }
              }
            ],
            "extension": [
              {
                "url": "http://hl7.org/fhir/StructureDefinition/composition-clinicaldocument-versionNumber"
              }
            ],
            "status": "final",
            "type": {
              "coding": [
                {
                  "code": "55751-2",
                  "display": "Public Health Case Report",
                  "system": "http://loinc.org"
                }
              ]
            },
            "date": "2019-02-08T17:22:46-04:00",
            "title": "Initial Public Health Case Report",
            "confidentiality": "N",
            "section": [
              {
                "id": "526baebe-ec05-54b5-42d1-cdc084249a1c",
                "title": "Encounters",
                "text": {
                  "status": "generated",
                  "div": "<table><thead><tr><th>Encounter<\/th><th>Date(s)<\/th><th>Location<\/th><\/tr><\/thead><tbody><tr data-id='id_2d72e0c7-7f36-4ca9-82a9-02933bd62a53_ref'><td>Office outpatient visit 15 minutes<\/td><td>02/10/2019<\/td><td>TBDFacilityName<\/td><\/tr><tr><td><ul><li><table><thead><tr><\/tr><\/thead><tbody><tr><\/tr><\/tbody><\/table><\/li><\/ul><\/td><\/tr><\/tbody><\/table>"
                },
                "code": {
                  "coding": [
                    {
                      "code": "46240-8",
                      "display": "History of encounters",
                      "system": "http://loinc.org"
                    }
                  ]
                },
                "mode": "snapshot"
              },
              {
                "id": "b82f44c1-751f-6338-bb45-c5d861c80488",
                "title": "History of Present Illness",
                "text": {
                  "status": "generated",
                  "div": "No history of present illness"
                },
                "code": {
                  "coding": [
                    {
                      "code": "10164-2",
                      "display": "History of Present Illness",
                      "system": "http://loinc.org"
                    }
                  ]
                },
                "mode": "snapshot"
              },
              {
                "id": "6380afb3-c297-c10b-482f-a7ddd50e932e",
                "title": "Medications Administered",
                "text": {
                  "status": "generated",
                  "div": "No medications administered"
                },
                "code": {
                  "coding": [
                    {
                      "code": "29549-3",
                      "display": "Medications Administered",
                      "system": "http://loinc.org"
                    }
                  ]
                },
                "mode": "snapshot"
              },
              {
                "id": "a6d0f0f4-0ebd-bea6-607e-6121f11026a4",
                "title": "Problem List",
                "text": {
                  "status": "generated",
                  "div": "No problems reported"
                },
                "code": {
                  "coding": [
                    {
                      "code": "11450-4",
                      "display": "Problem List",
                      "system": "http://loinc.org"
                    }
                  ]
                },
                "mode": "snapshot"
              },
              {
                "id": "3d1bb889-26bd-d3d9-b884-bf37c9f145f8",
                "title": "Reason for visit",
                "text": {
                  "status": "generated"
                },
                "code": {
                  "coding": [
                    {
                      "code": "29299-5",
                      "display": "Reason for visit",
                      "system": "http://loinc.org"
                    }
                  ]
                },
                "mode": "snapshot"
              },
              {
                "id": "86c888a7-c983-0db4-55ae-d1ad409de7e4",
                "title": "Results",
                "text": {
                  "status": "generated",
                  "div": "<table><thead><tr><th>Results Panel<\/th><th>Date(s)<\/th><\/tr><\/thead><tbody><tr data-id='id_f71a7477-f860-4a3c-a79e-5fe743cae1f4_ref'><td>Neisseria gonorrhoeae DNA [Presence] in Urethra by NAA with probe detection<\/td><td><\/td><\/tr><tr><td><ul><li><paragraph>*** In the table below, row entries with values under RCTC columns triggered this Electronic Initial Case Report (eICR)<\/paragraph><table><thead><tr><th>Test<\/th><th>Lab Test RCTC OID ***<\/th><th>Lab Test RCTC Version ***<\/th><th>Outcome<\/th><th>Date(s)<\/th><th>Lab Result RCTC OID ***<\/th><th>Lab Result RCTC Version ***<\/th><\/tr><\/thead><tbody><tr data-id='id_998576ea-7a30-4aa5-8f07-2662463ac620_ref'><td>Neisseria gonorrhoeae DNA [Presence] in Urethra by NAA with probe detection<\/td><td><\/td><td><\/td><td>Detected (qualifier value)<\/td><td>01/04/2016<\/td><td>2.16.840.1.114222.4.11.7508<\/td><td>20171013<\/td><\/tr><\/tbody><\/table><\/li><\/ul><\/td><\/tr><\/tbody><\/table>"
                },
                "code": {
                  "coding": [
                    {
                      "code": "30954-2",
                      "display": "Relevant diagnostic tests and/or laboratory data",
                      "system": "http://loinc.org"
                    }
                  ]
                },
                "mode": "snapshot",
                "entry": [
                  {
                    "reference": "Observation/bc888e57-ff9b-26fe-853b-30ab7812108f"
                  }
                ]
              },
              {
                "id": "cb3e8d37-1c9a-dbac-2784-678565fa07ea",
                "title": "Plan of Treatment",
                "text": {
                  "status": "generated",
                  "div": "<paragraph>*** In the table below, row entries with values under RCTC columns triggered this Electronic Initial Case Report (eICR)<\/paragraph><table><thead><tr><th>Lab Test Order<\/th><th>Code<\/th><th>CodeSystem<\/th><th>RCTC OID ***<\/th><th>RCTC Version ***<\/th><th>Ordered Date<\/th><\/tr><\/thead><tbody><tr data-id='id_158cfe54-cbe1-42ce-b5ae-98a92d2d9e3d_ref'><td>Neisseria gonorrhoeae DNA [Presence] in Urethra by NAA with probe detection<\/td><td>21415-5<\/td><td>LOINC<\/td><td><\/td><td><\/td><td>02/10/2019<\/td><\/tr><\/tbody><\/table>"
                },
                "code": {
                  "coding": [
                    {
                      "code": "18776-5",
                      "display": "Plan of Treatment",
                      "system": "http://loinc.org"
                    }
                  ]
                },
                "mode": "snapshot"
              },
              {
                "id": "27956361-d0f0-cbbe-8862-0f254d2c96a2",
                "title": "Social History",
                "text": {
                  "status": "generated",
                  "div": "<table><thead><tr><th>Birth Sex<\/th><th>Value<\/th><th>Date<\/th><\/tr><\/thead><tbody><tr><td>Sex Assigned At Birth<\/td><td>Female<\/td><td>12/27/1986<\/td><\/tr><\/tbody><\/table><table><thead><tr><th>Social History Observation Type<\/th><th>Value<\/th><th>Dates(s)<\/th><\/tr><\/thead><tbody><tr data-id='id_0d32d895-8df0-475b-9a4f-10757c6cb9e1_ref'><td>Occupation / Employment details<\/td><td><\/td><td><\/td><\/tr><tr><td>Pregnancy Status<\/td><td>Unknown<\/td><td><\/td><\/tr><\/tbody><\/table>"
                },
                "code": {
                  "coding": [
                    {
                      "code": "29762-2",
                      "display": "Social History",
                      "system": "http://loinc.org"
                    }
                  ]
                },
                "mode": "snapshot"
              },
              {
                "id": "b36a550e-50a9-5e05-b71a-88dd586bc7d4",
                "title": "Reportability Response Information Section",
                "text": {
                  "status": "generated",
                  "div": "<div xmlns=\"http://www.w3.org/1999/xhtml\">Reportability Response Information Section<\/div>"
                },
                "extension": [
                  {
                    "url": "http://hl7.org/fhir/us/ecr/StructureDefinition/rr-composition",
                    "valueIdentifier": {
                      "use": "official",
                      "type": {
                        "coding": [
                          {
                            "code": "88085-6",
                            "display": "Reportability response report Document Public health",
                            "system": "http://loinc.org"
                          }
                        ]
                      },
                      "value": "fdb24c25-5bcb-49a0-b148-db9968fde558"
                    }
                  },
                  {
                    "url": "http://hl7.org/fhir/us/ecr/StructureDefinition/rr-eicr-processing-status-extension",
                    "valueCodeableConcept": {
                      "coding": [
                        {
                          "code": "RRVS19",
                          "display": "eICR processed",
                          "system": "urn:oid:2.16.840.1.114222.4.5.274"
                        }
                      ]
                    }
                  }
                ],
                "code": {
                  "coding": [
                    {
                      "code": "88085-6",
                      "display": "Reportability response report Document Public health",
                      "system": "http://loinc.org"
                    }
                  ]
                },
                "entry": [
                  {
                    "display": "Relevant Reportable Condition Observation - Gonorrhea (disorder)",
                    "reference": "Observation/31a59bfc-f9e1-4bd1-ac49-c041fbe38339"
                  }
                ]
              }
            ],
            "subject": {
              "reference": "Patient/c91f2406-77ee-4632-8009-dd4f0e86a43b"
            },
            "encounter": {
              "reference": "Encounter/c20ce0ff-081b-4f7e-cf12-7b47ccd6b304"
            },
            "custodian": {
              "reference": "Organization/daf02ea4-2048-a2c3-e24f-7313a37bd19b"
            },
            "author": [
              {
                "reference": "Device/d8a3e46a-e8cd-9c3c-87b0-7537d99b940e"
              }
            ]
          },
          "request": {
            "method": "PUT",
            "url": "Composition/b637297b-ed15-40cb-ba22-a3b4bc286a88"
          }
        },
        {
          "fullUrl": "urn:uuid:c20ce0ff-081b-4f7e-cf12-7b47ccd6b304",
          "resource": {
            "resourceType": "Encounter",
            "id": "c20ce0ff-081b-4f7e-cf12-7b47ccd6b304",
            "status": "unknown",
            "class": {
              "code": "99213",
              "display": "Office outpatient visit 15 minutes",
              "system": "http://www.ama-assn.org/go/cpt"
            },
            "identifier": [
              {
                "system": "urn:oid:2.16.840.1.113883.19",
                "value": "9937012"
              }
            ],
            "period": {
              "start": "2019-02-10",
              "end": "2019-02-10"
            },
            "subject": {
              "reference": "Patient/c91f2406-77ee-4632-8009-dd4f0e86a43b"
            },
            "location": [
              {
                "id": "2.16.840.1.113883.4.6",
                "location": {
                  "reference": "Location/d7de7f0d-c7e8-8e98-3cfd-bcdf31872b25",
                  "display": "TBDFacilityName"
                },
                "extension": [
                  {
                    "url": "http://build.fhir.org/ig/HL7/case-reporting/StructureDefinition-us-ph-location-definitions.html#Location.type",
                    "valueCodeableConcept": {
                      "coding": [
                        {
                          "code": "OF",
                          "display": "Outpatient Facility",
                          "system": "urn:oid:2.16.840.1.113883.5.111"
                        }
                      ]
                    }
                  }
                ]
              }
            ],
            "participant": [
              {
                "type": [
                  {
                    "coding": [
                      {
                        "system": "http://terminology.hl7.org/CodeSystem/v3-ParticipationType",
                        "code": "ATND"
                      }
                    ]
                  }
                ],
                "individual": {
                  "reference": "Practitioner/4581f291-448a-04ad-0508-e348f799a4b0"
                }
              }
            ],
            "meta": {
              "source": [
                "ecr"
              ]
            }
          },
          "request": {
            "method": "PUT",
            "url": "Encounter/c20ce0ff-081b-4f7e-cf12-7b47ccd6b304"
          }
        },
        {
          "fullUrl": "urn:uuid:d7de7f0d-c7e8-8e98-3cfd-bcdf31872b25",
          "resource": {
            "resourceType": "Location",
            "id": "d7de7f0d-c7e8-8e98-3cfd-bcdf31872b25",
            "identifier": [
              {
                "system": "http://hl7.org/fhir/sid/us-npi",
                "value": "1347"
              }
            ],
            "name": "TBDFacilityName",
            "address": {
              "use": "work",
              "line": [
                "1234 Facility Drive"
              ],
              "city": "TBDFacilityCity",
              "state": "TBDFacilityState",
              "postalCode": "TBDFacilityZip"
            },
            "telecom": [
              {
                "system": "phone",
                "value": "TBDFacilityPhone",
                "use": "work"
              }
            ],
            "type": [
              {
                "coding": [
                  {
                    "code": "OF",
                    "display": "Outpatient Facility",
                    "system": "urn:oid:2.16.840.1.113883.5.111"
                  }
                ]
              }
            ],
            "meta": {
              "source": [
                "ecr"
              ]
            }
          },
          "request": {
            "method": "PUT",
            "url": "Location/d7de7f0d-c7e8-8e98-3cfd-bcdf31872b25"
          }
        },
        {
          "fullUrl": "urn:uuid:4581f291-448a-04ad-0508-e348f799a4b0",
          "resource": {
            "resourceType": "Practitioner",
            "id": "4581f291-448a-04ad-0508-e348f799a4b0",
            "meta": {
              "profile": [
                "http://hl7.org/fhir/us/core/StructureDefinition/us-core-practitioner"
              ],
              "source": [
                "ecr"
              ]
            },
            "extension": [
              {
                "url": "http://hl7.org/fhir/StructureDefinition/_datatype",
                "valueString": "Responsible Party"
              }
            ],
            "identifier": [
              {
                "system": "http://hl7.org/fhir/sid/us-npi",
                "value": "66666666666"
              }
            ],
            "name": [
              {
                "use": "usual",
                "text": "TBDFacilityName"
              }
            ],
            "address": [
              {
                "use": "home",
                "line": [
                  "1002 Healthcare Drive"
                ],
                "city": "TBDProvCity",
                "state": "TBDProvState",
                "country": "US",
                "postalCode": "TBDProvZip"
              },
              {
                "use": "work",
                "line": [
                  "1234 Facility Drive"
                ],
                "city": "TBDFacilityCity",
                "state": "TBDFacilityState",
                "postalCode": "TBDFacilityZip"
              }
            ]
          },
          "request": {
            "method": "PUT",
            "url": "Practitioner/4581f291-448a-04ad-0508-e348f799a4b0"
          }
        },
        {
          "fullUrl": "urn:uuid:50f3c505-0e03-09e3-1ce9-772f460361c2",
          "resource": {
            "resourceType": "Organization",
            "id": "50f3c505-0e03-09e3-1ce9-772f460361c2",
            "meta": {
              "profile": [
                "http://hl7.org/fhir/us/ecr/StructureDefinition/rr-routing-entity-organization"
              ],
              "source": [
                "ecr"
              ]
            },
            "active": true,
            "type": [
              {
                "coding": [
                  {
                    "system": "urn:oid:2.16.840.1.114222.4.5.232",
                    "code": "RR7",
                    "display": "Routing Entity"
                  }
                ]
              }
            ],
            "name": "Utah Department of Health"
          },
          "request": {
            "method": "PUT",
            "url": "Organization/50f3c505-0e03-09e3-1ce9-772f460361c2"
          }
        },
        {
          "fullUrl": "urn:uuid:31a59bfc-f9e1-4bd1-ac49-c041fbe38339",
          "resource": {
            "resourceType": "Observation",
            "id": "31a59bfc-f9e1-4bd1-ac49-c041fbe38339",
            "meta": {
              "profile": [
                "http://hl7.org/fhir/us/ecr/StructureDefinition/rr-reportability-information-observation"
              ],
              "source": [
                "ecr"
              ]
            },
            "identifier": [
              {
                "system": "urn:ietf:rfc:3986",
                "value": "urn:uuid:31a59bfc-f9e1-4bd1-ac49-c041fbe38339"
              }
            ],
            "status": "final",
            "code": {
              "coding": [
                {
                  "code": "64572001",
                  "display": "Condition",
                  "system": "http://snomed.info/sct"
                },
                {
                  "code": "75323-6",
                  "display": "Condition",
                  "system": "http://loinc.org"
                }
              ]
            },
            "valueCodeableConcept": {
              "coding": [
                {
                  "code": "15628003",
                  "display": "Gonorrhea (disorder)",
                  "system": "http://snomed.info/sct"
                }
              ]
            },
            "extension": [
              {
                "url": "http://hl7.org/fhir/us/ecr/StructureDefinition/us-ph-determination-of-reportability-rule-extension",
                "valueString": "All result values for laboratory tests specific                                for detecting of Neisseria gonorrhoeae nucleic acid in a clinical                                specimen by any method"
              },
              {
                "url": "http://hl7.org/fhir/us/ecr/StructureDefinition/us-ph-determination-of-reportability-rule-extension",
                "valueString": "Detection of Neisseria gonorrhoeae nucleic acid                                by any method in a clinical specimen, including the following                                methods: - nucleic acid by hybridization with a nucleic acid probe -                                nucleic acid amplification (e.g., PCR)"
              }
            ],
            "performer": [
              {
                "reference": "Organization/50f3c505-0e03-09e3-1ce9-772f460361c2",
                "display": "Utah Department of Health"
              }
            ]
          },
          "request": {
            "method": "PUT",
            "url": "Observation/31a59bfc-f9e1-4bd1-ac49-c041fbe38339"
          }
        },
        {
          "fullUrl": "urn:uuid:daf02ea4-2048-a2c3-e24f-7313a37bd19b",
          "resource": {
            "resourceType": "Organization",
            "id": "daf02ea4-2048-a2c3-e24f-7313a37bd19b",
            "identifier": [
              {
                "system": "http://hl7.org/fhir/sid/us-npi",
                "value": "TBDFacility#"
              }
            ],
            "name": "TBDFacilityName",
            "address": [
              {
                "use": "work",
                "line": [
                  "1234 Facility Drive"
                ],
                "city": "TBDFacilityCity",
                "state": "TBDFacilityState",
                "postalCode": "TBDFacilityZip"
              }
            ],
            "telecom": [
              {
                "system": "phone",
                "value": "TBDFacilityPhone",
                "use": "work"
              }
            ],
            "meta": {
              "source": [
                "ecr"
              ]
            }
          },
          "request": {
            "method": "PUT",
            "url": "Organization/daf02ea4-2048-a2c3-e24f-7313a37bd19b"
          }
        },
        {
          "fullUrl": "urn:uuid:d8a3e46a-e8cd-9c3c-87b0-7537d99b940e",
          "resource": {
            "resourceType": "Device",
            "id": "d8a3e46a-e8cd-9c3c-87b0-7537d99b940e",
            "identifier": [
              {
                "system": "urn:ietf:rfc:3986",
                "value": "urn:uuid:2.16.840.1.113883.3.72.5.20"
              }
            ],
            "category": {
              "coding": [
                {
                  "system": "http://hl7.org/fhir/device-category",
                  "code": "software",
                  "display": "software"
                }
              ]
            },
            "meta": {
              "source": [
                "ecr"
              ]
            }
          },
          "request": {
            "method": "PUT",
            "url": "Device/d8a3e46a-e8cd-9c3c-87b0-7537d99b940e"
          }
        },
        {
          "fullUrl": "urn:uuid:c91f2406-77ee-4632-8009-dd4f0e86a43b",
          "resource": {
            "resourceType": "Patient",
            "id": "c91f2406-77ee-4632-8009-dd4f0e86a43b",
            "meta": {
              "profile": [
                "http://hl7.org/fhir/us/core/StructureDefinition/us-core-patient"
              ],
              "source": [
                "ecr"
              ]
            },
            "identifier": [
              {
                "system": "urn:oid:2.16.840.1.113883.19.5",
                "value": "PT-471325"
              }
            ],
            "name": [
              {
                "use": "official",
                "family": "Everywoman",
                "given": [
                  "Eve"
                ]
              }
            ],
            "birthDate": "1986-12-27",
            "deceasedBoolean": false,
            "gender": "female",
            "extension": [
              {
                "url": "http://hl7.org/fhir/us/core/StructureDefinition/us-core-race",
                "extension": [
                  {
                    "url": "ombCategory",
                    "valueCoding": {
                      "code": "2106-3",
                      "display": "WHITE"
                    }
                  },
                  {
                    "url": "text",
                    "valueString": "WHITE"
                  }
                ]
              },
              {
                "url": "http://hl7.org/fhir/us/core/StructureDefinition/us-core-ethnicity",
                "extension": [
                  {
                    "url": "ombCategory",
                    "valueCoding": {
                      "code": "2186-5",
                      "display": "Not Hispanic or Latino"
                    }
                  },
                  {
                    "url": "text",
                    "valueString": "Not Hispanic or Latino"
                  }
                ]
              }
            ],
            "address": [
              {
                "use": "home",
                "line": [
                  "1234 Patient Street"
                ],
                "city": "TBDPatientCity",
                "state": "TBDPatientState",
                "country": "US",
                "postalCode": "TBDPatientZip"
              }
            ],
            "telecom": [
              {
                "system": "phone",
                "value": "555-555-2003",
                "use": "home"
              },
              {
                "system": "email",
                "value": "eeeverywoman@email.com",
                "use": "home"
              }
            ],
            "communication": [
              {
                "language": {
                  "coding": [
                    {
                      "system": "urn:ietf:bcp:47",
                      "code": "en",
                      "display": "English"
                    }
                  ]
                },
                "preferred": true
              }
            ]
          },
          "request": {
            "method": "PUT",
            "url": "Patient/c91f2406-77ee-4632-8009-dd4f0e86a43b"
          }
        },
        {
          "fullUrl": "urn:uuid:",
          "resource": {
            "resourceType": "CareTeam",
            "subject": {
              "reference": "Patient/c91f2406-77ee-4632-8009-dd4f0e86a43b"
            },
            "meta": {
              "source": [
                "ecr"
              ]
            }
          }
        },
        {
          "fullUrl": "urn:uuid:",
          "resource": {
            "resourceType": "CarePlan",
            "status": "unknown",
            "intent": "proposal",
            "subject": {
              "reference": "Patient/c91f2406-77ee-4632-8009-dd4f0e86a43b"
            },
            "meta": {
              "source": [
                "ecr"
              ]
            }
          },
          "request": {
            "method": "PUT",
            "url": "CarePlan/"
          }
        },
        {
          "fullUrl": "urn:uuid:75b0088b-cafc-0be1-5375-1a45470b5251",
          "resource": {
            "resourceType": "DiagnosticReport",
            "id": "75b0088b-cafc-0be1-5375-1a45470b5251",
            "identifier": [
              {
                "system": "urn:ietf:rfc:3986",
                "value": "urn:uuid:f71a7477-f860-4a3c-a79e-5fe743cae1f4"
              }
            ],
            "status": "final",
            "code": {
              "coding": [
                {
                  "code": "21415-5",
                  "display": "Neisseria gonorrhoeae DNA [Presence] in Urethra by NAA with probe detection",
                  "system": "http://loinc.org"
                }
              ]
            },
            "effectivePeriod": {
              "start": "2016-01-04",
              "end": "2016-01-04"
            },
            "subject": {
              "reference": "Patient/c91f2406-77ee-4632-8009-dd4f0e86a43b"
            },
            "result": [
              {
                "reference": "Observation/bc888e57-ff9b-26fe-853b-30ab7812108f"
              }
            ],
            "meta": {
              "source": [
                "ecr"
              ]
            }
          },
          "request": {
            "method": "PUT",
            "url": "DiagnosticReport/75b0088b-cafc-0be1-5375-1a45470b5251"
          }
        },
        {
          "fullUrl": "urn:uuid:bc888e57-ff9b-26fe-853b-30ab7812108f",
          "resource": {
            "resourceType": "Observation",
            "id": "bc888e57-ff9b-26fe-853b-30ab7812108f",
            "meta": {
              "profile": [
                "http://hl7.org/fhir/us/core/StructureDefinition/us-core-observationresults"
              ],
              "source": [
                "ecr"
              ]
            },
            "identifier": [
              {
                "system": "urn:ietf:rfc:3986",
                "value": "urn:uuid:998576ea-7a30-4aa5-8f07-2662463ac620"
              }
            ],
            "category": [
              {
                "coding": [
                  {
                    "system": "http://terminology.hl7.org/CodeSystem/observation-category",
                    "code": "laboratory"
                  }
                ]
              }
            ],
            "status": "final",
            "code": {
              "coding": [
                {
                  "code": "21415-5",
                  "display": "Neisseria gonorrhoeae DNA [Presence] in Urethra by NAA with probe detection",
                  "system": "http://loinc.org"
                }
              ]
            },
            "effectiveDateTime": "2016-01-04",
            "valueCodeableConcept": {
              "coding": [
                {
                  "code": "260373001",
                  "display": "Detected (qualifier value)",
                  "system": "http://snomed.info/sct"
                }
              ]
            },
            "subject": {
              "reference": "Patient/c91f2406-77ee-4632-8009-dd4f0e86a43b"
            }
          },
          "request": {
            "method": "PUT",
            "url": "Observation/bc888e57-ff9b-26fe-853b-30ab7812108f"
          }
        },
        {
          "fullUrl": "urn:uuid:",
          "resource": {
            "resourceType": "Device",
            "meta": {
              "source": [
                "ecr"
              ]
            }
          },
          "request": {
            "method": "PUT",
            "url": "Device/"
          }
        },
        {
          "fullUrl": "urn:uuid:9391910f-2e1f-22c6-eb9d-010ccaf98068",
          "resource": {
            "resourceType": "Observation",
            "id": "9391910f-2e1f-22c6-eb9d-010ccaf98068",
            "meta": {
              "profile": [
                "http://hl7.org/fhir/us/core/StructureDefinition/us-core-observationresults"
              ],
              "source": [
                "ecr"
              ]
            },
            "category": [
              {
                "coding": [
                  {
                    "system": "http://terminology.hl7.org/CodeSystem/observation-category",
                    "code": "social-history"
                  }
                ]
              }
            ],
            "status": "final",
            "code": {
              "coding": [
                {
                  "code": "76689-9",
                  "display": "Sex Assigned At Birth",
                  "system": "http://loinc.org"
                }
              ]
            },
            "effectiveDateTime": "1986-12-27",
            "valueCodeableConcept": {
              "coding": [
                {
                  "code": "F",
                  "display": "Female",
                  "system": "urn:oid:2.16.840.1.113883.5.1"
                }
              ]
            },
            "subject": {
              "reference": "Patient/c91f2406-77ee-4632-8009-dd4f0e86a43b"
            }
          },
          "request": {
            "method": "PUT",
            "url": "Observation/9391910f-2e1f-22c6-eb9d-010ccaf98068"
          }
        },
        {
          "fullUrl": "urn:uuid:814a4da1-50f9-ca59-195a-61243c320221",
          "resource": {
            "resourceType": "Observation",
            "id": "814a4da1-50f9-ca59-195a-61243c320221",
            "meta": {
              "profile": [
                "http://hl7.org/fhir/us/core/StructureDefinition/us-core-observationresults"
              ],
              "source": [
                "ecr"
              ]
            },
            "identifier": [
              {
                "system": "urn:oid:2.16.840.1.113883.19",
                "value": "123456789"
              }
            ],
            "category": [
              {
                "coding": [
                  {
                    "system": "http://terminology.hl7.org/CodeSystem/observation-category",
                    "code": "social-history"
                  }
                ]
              }
            ],
            "status": "final",
            "code": {
              "coding": [
                {
                  "code": "ASSERTION",
                  "system": "urn:oid:2.16.840.1.113883.5.4"
                }
              ]
            },
            "valueCodeableConcept": {
              "coding": [
                {
                  "code": "77386006",
                  "display": "Pregnant",
                  "system": "http://snomed.info/sct"
                }
              ]
            },
            "subject": {
              "reference": "Patient/c91f2406-77ee-4632-8009-dd4f0e86a43b"
            }
          },
          "request": {
            "method": "PUT",
            "url": "Observation/814a4da1-50f9-ca59-195a-61243c320221"
          }
        },
        {
          "fullUrl": "urn:uuid:",
          "resource": {
            "resourceType": "Observation",
            "meta": {
              "profile": [
                "http://hl7.org/fhir/us/core/StructureDefinition/us-core-observationresults"
              ],
              "source": [
                "ecr"
              ]
            }
          },
          "request": {
            "method": "PUT",
            "url": "Observation/"
          }
        }
      ]
    }
  }
}
