{
  "resourceType": "Bundle",
  "type": "batch",
  "entry": [
    {
      "fullUrl": "urn:uuid:40fc3506-f9c2-45bf-a4f8-cbfe5cf744e8",
      "resource": {
        "resourceType": "Composition",
        "id": "40fc3506-f9c2-45bf-a4f8-cbfe5cf744e8",
        "meta": {
          "profile": [
            "http://hl7.org/fhir/us/ecr/StructureDefinition/eicr-composition"
          ],
          "source": "ecr"
        },
        "identifier": [
          {
            "use": "official",
            "type": {
              "coding": [
                {
                  "code": "55751-2",
                  "display": "Public Health Case Report",
                  "system": "http://loinc.org"
                }
              ]
            },
            "value": "8d86218e-0fea-11eb-8216-a80388425cfb"
          }
        ],
        "extension": [
          {
            "url": "http://hl7.org/fhir/StructureDefinition/composition-clinicaldocument-versionNumber",
            "valueString": "1"
          }
        ],
        "status": "final",
        "type": {
          "coding": [
            {
              "code": "55751-2",
              "display": "Public Health Case Report",
              "system": "http://loinc.org"
            }
          ]
        },
        "date": "2020-05-05T15:00:45-04:00",
        "title": "Initial Public Health Case Report",
        "confidentiality": "N",
        "section": [
          {
            "id": "e39e49c5-6099-8b5a-8dfd-b360d3938660",
            "title": "Encounters",
            "text": {
              "status": "generated",
              "div": "<table><thead><tr><th>Encounter</th><th>Date(s)</th><th>Location</th></tr></thead><tbody><tr><!-- data-id: id_9543eeed-b087-4014-bbdd-2f4b4a182e81_ref --><td>Office outpatient visit 15 minutes</td><td>05/12/2020</td><td>Provo Outpatient Clinic</td></tr><tr><td><ul><li><table><thead><tr></tr></thead><tbody><tr></tr></tbody></table></li></ul></td></tr></tbody></table>"
            },
            "code": {
              "coding": [
                {
                  "code": "46240-8",
                  "display": "History of encounters",
                  "system": "http://loinc.org"
                }
              ]
            },
            "mode": "snapshot"
          },
          {
            "id": "9f2146e1-0152-522b-0d38-ce5b6cc8f742",
            "title": "History of Present Illness",
            "text": {
              "status": "generated",
              "div": "<paragraph>Patient thinks he was in contact with a COVID-10 positive person;</paragraph>"
            },
            "code": {
              "coding": [
                {
                  "code": "10164-2",
                  "display": "History of Present Illness",
                  "system": "http://loinc.org"
                }
              ]
            },
            "mode": "snapshot"
          },
          {
            "id": "e9466741-8c4f-69b6-1161-784fead85325",
            "title": "Medications Administered",
            "text": {
              "status": "generated",
              "div": "No medications administered"
            },
            "code": {
              "coding": [
                {
                  "code": "29549-3",
                  "display": "Medications Administered",
                  "system": "http://loinc.org"
                }
              ]
            },
            "mode": "snapshot"
          },
          {
            "id": "3c081c28-d1c2-b515-4122-dc0697216f11",
            "title": "Problem List",
            "text": {
              "status": "generated",
              "div": "No problems reported"
            },
            "code": {
              "coding": [
                {
                  "code": "11450-4",
                  "display": "Problem List",
                  "system": "http://loinc.org"
                }
              ]
            },
            "mode": "snapshot"
          },
          {
            "id": "a850380c-dccf-22d1-9be5-30c82ad1975f",
            "title": "Reason for visit",
            "text": {
              "status": "generated",
              "div": "<paragraph>Patient thinks he was in contact with a COVID-10 positive person</paragraph>"
            },
            "code": {
              "coding": [
                {
                  "code": "29299-5",
                  "display": "Reason for visit",
                  "system": "http://loinc.org"
                }
              ]
            },
            "mode": "snapshot",
            "extension": [
              {
                "url": "http://hl7.org/fhir/cda/ccda/StructureDefinition/2.16.840.1.113883.10.20.22.2.12",
                "valueString": "Patient thinks he was in contact with a COVID-10 positive person "
              }
            ]
          },
          {
            "id": "31f8b482-3db1-5028-ff2e-46321e18d919",
            "title": "RESULTS",
            "text": {
              "status": "generated",
              "div": "<table><thead><tr><th>Lab Test Name</th><th>Lab Test Result Value</th><th>Lab Test Result Date</th></tr></thead><tbody><tr><td></td><td>Neisseria gonorrhoeae DNA [Presence] in Nasopharynx by NAA with probe detection</td><td>Detected</td></tr><tr><td></td><td>Chlamydia trachomatis rRNA [Presence] in Vaginal fluid by NAA with probe detection</td><td>Not Detected</td></tr><tr><td></td><td>SARS-like Coronavirus N gene [Presence] in Unspecified specimen by NAA with probe detection</td><td>Not Detected</td></tr></tbody></table>"
            },
            "code": {
              "coding": [
                {
                  "code": "30954-2",
                  "display": "RESULTS",
                  "system": "http://loinc.org"
                }
              ]
            },
            "mode": "snapshot",
            "entry": [
              {
                "reference": "Observation/41832eda-226d-a99d-8cf2-71592f938e70"
              },
              {
                "reference": "Observation/b8a7f072-9694-1912-2763-a4442e351e33"
              },
              {
                "reference": "Observation/d8cd84c5-7ef8-9118-7c7f-4efb4f7e3dab"
              }
            ]
          },
          {
            "id": "a83effb4-fb76-e22d-3223-6d4db5218c39",
            "title": "Plan of Treatment",
            "text": {
              "status": "generated",
              "div": "<paragraph>*** In the table below, row entries with values under RCTC columns triggered this Electronic Initial Case Report (eICR)</paragraph><table><thead><tr><th>Lab Test Order</th><th>Code</th><th>CodeSystem</th><th>RCTC OID ***</th><th>RCTC Version ***</th><th>Ordered Date</th></tr></thead><tbody><tr><!-- data-id: id_d779f48e-a3d1-4c90-94b6-82a81cda24f3_ref --><td>SARS-related coronavirus RNA [Presence] in Unspecified specimen by NAA with probe detection</td><td>94647-5</td><td>LOINC</td><td></td><td></td><td>05/12/2020</td></tr></tbody></table>"
            },
            "code": {
              "coding": [
                {
                  "code": "18776-5",
                  "display": "Plan of Treatment",
                  "system": "http://loinc.org"
                }
              ]
            },
            "mode": "snapshot"
          },
          {
            "id": "f6d05dbd-4be5-e0aa-83cf-d7ee5ccd19d9",
            "title": "Social History",
            "text": {
              "status": "generated",
              "div": "<table><thead><tr><th>Birth Sex</th><th>Value</th><th>Date</th></tr></thead><tbody><tr><td>Sex Assigned At Birth</td><td>Male</td><td>09/13/1967</td></tr></tbody></table><table><thead><tr><th>Social History Observation Type</th><th>Value</th><th>Dates(s)</th></tr></thead><tbody><tr><!-- data-id: id_14ba4186-419e-4777-b65b-11ea1b21cfe8_ref --><td>Occupation / Employment details</td><td></td><td></td></tr></tbody></table>"
            },
            "code": {
              "coding": [
                {
                  "code": "29762-2",
                  "display": "Social History",
                  "system": "http://loinc.org"
                }
              ]
            },
            "mode": "snapshot"
          },
          {
            "id": "33a85ce5-9d85-fc53-fb02-63784592e250",
            "title": "Reportability Response Information Section",
            "text": {
              "status": "generated",
              "div": "<div xmlns=\"http://www.w3.org/1999/xhtml\">Reportability Response Information Section</div>"
            },
            "extension": [
              {
                "url": "http://hl7.org/fhir/us/ecr/StructureDefinition/rr-composition",
                "valueIdentifier": {
                  "use": "official",
                  "type": {
                    "coding": [
                      {
                        "code": "88085-6",
                        "display": "Reportability response report Document Public health",
                        "system": "http://loinc.org"
                      }
                    ]
                  },
                  "value": "60e380d5-f3fa-4b4b-8003-efd9732b96da"
                }
              },
              {
                "url": "http://hl7.org/fhir/us/ecr/StructureDefinition/rr-eicr-processing-status-extension",
                "valueCodeableConcept": {
                  "coding": [
                    {
                      "code": "RRVS19",
                      "display": "eICR processed",
                      "system": "urn:oid:2.16.840.1.114222.4.5.274"
                    }
                  ]
                }
              }
            ],
            "code": {
              "coding": [
                {
                  "code": "88085-6",
                  "display": "Reportability response report Document Public health",
                  "system": "http://loinc.org"
                }
              ]
            },
            "entry": [
              {
                "display": "Relevant Reportable Condition Observation - Gonorrhea (disorder)",
                "reference": "Observation/5bca6972-8606-4310-9bb7-08b2e16fa17e"
              },
              {
                "display": "Relevant Reportable Condition Observation - Chlamydial infection (disorder)",
                "reference": "Observation/7c33ab36-0229-4bac-9508-0bb3cd203c85"
              },
              {
                "display": "Relevant Reportable Condition Observation - Disease caused by severe acute respiratory syndrome coronavirus 2 (disorder)",
                "reference": "Observation/e5d840c1-d6be-4c1d-b196-672cbf097a09"
              }
            ]
          }
        ],
        "subject": {
          "reference": "Patient/e599cb41-5e59-4956-9844-47e571646627"
        },
        "encounter": {
          "reference": "Encounter/2e46650b-2159-0d9e-6784-1a4384dc4815"
        },
        "custodian": {
          "reference": "Organization/daf02ea4-2048-a2c3-e24f-7313a37bd19b"
        },
        "author": [
          {
            "reference": "Device/0525caf2-b5bb-1452-cccf-9bcf972fe55e"
          }
        ]
      },
      "request": {
        "method": "PUT",
        "url": "Composition/40fc3506-f9c2-45bf-a4f8-cbfe5cf744e8"
      }
    },
    {
      "fullUrl": "urn:uuid:2e46650b-2159-0d9e-6784-1a4384dc4815",
      "resource": {
        "resourceType": "Encounter",
        "id": "2e46650b-2159-0d9e-6784-1a4384dc4815",
        "status": "unknown",
        "class": {
          "code": "AMB",
          "display": "Ambulatory",
          "system": "urn:oid:2.16.840.1.113883.5.4"
        },
        "identifier": [
          {
            "system": "urn:oid:2.16.840.1.113883.19",
            "value": "9937014"
          }
        ],
        "period": {
          "start": "2020-05-12",
          "end": "2020-05-12"
        },
        "subject": {
          "reference": "Patient/e599cb41-5e59-4956-9844-47e571646627"
        },
        "location": [
          {
            "id": "2.16.840.1.113883.4.6",
            "location": {
              "reference": "Location/97111eb3-8967-f01b-6b31-e252e853d795",
              "display": "Provo Outpatient Clinic"
            },
            "extension": [
              {
                "url": "http://build.fhir.org/ig/HL7/case-reporting/StructureDefinition-us-ph-location-definitions.html#Location.type",
                "valueCodeableConcept": {
                  "coding": [
                    {
                      "code": "OF",
                      "display": "Outpatient Facility",
                      "system": "urn:oid:2.16.840.1.113883.5.111"
                    }
                  ]
                }
              }
            ]
          }
        ],
        "serviceProvider": {
          "reference": "Organization/ccc9d8cf-4198-7065-a0f5-a2f661362b4a"
        },
        "participant": [
          {
            "type": [
              {
                "coding": [
                  {
                    "system": "http://terminology.hl7.org/CodeSystem/v3-ParticipationType",
                    "code": "ATND"
                  }
                ]
              }
            ],
            "individual": {
              "reference": "PractitionerRole/e056fd1c-3655-abe8-0ea6-abb58cecfa3c"
            }
          }
        ],
        "meta": {
          "source": "ecr"
        }
      },
      "request": {
        "method": "PUT",
        "url": "Encounter/2e46650b-2159-0d9e-6784-1a4384dc4815"
      }
    },
    {
      "fullUrl": "urn:uuid:97111eb3-8967-f01b-6b31-e252e853d795",
      "resource": {
        "resourceType": "Location",
        "id": "97111eb3-8967-f01b-6b31-e252e853d795",
        "identifier": [
          {
            "system": "http://hl7.org/fhir/sid/us-npi",
            "value": "2365"
          }
        ],
        "name": "Provo Outpatient Clinic",
        "address": {
          "use": "work",
          "line": ["1002 Healthcare Drive"],
          "city": "Provo",
          "state": "UT",
          "postalCode": "84601"
        },
        "telecom": [
          {
            "system": "phone",
            "value": "555-777-0123",
            "use": "work"
          }
        ],
        "type": [
          {
            "coding": [
              {
                "code": "OF",
                "display": "Outpatient Facility",
                "system": "urn:oid:2.16.840.1.113883.5.111"
              }
            ]
          }
        ],
        "meta": {
          "source": "ecr"
        }
      },
      "request": {
        "method": "PUT",
        "url": "Location/97111eb3-8967-f01b-6b31-e252e853d795"
      }
    },
    {
      "fullUrl": "urn:uuid:ccc9d8cf-4198-7065-a0f5-a2f661362b4a",
      "resource": {
        "resourceType": "Organization",
        "id": "ccc9d8cf-4198-7065-a0f5-a2f661362b4a",
        "name": "Provo Outpatient Clinic",
        "address": [
          {
            "use": "work",
            "line": ["1002 Healthcare Drive"],
            "city": "Provo",
            "state": "UT",
            "postalCode": "84601"
          }
        ],
        "telecom": [
          {
            "system": "phone",
            "value": "555-777-0123",
            "use": "work"
          }
        ],
        "meta": {
          "source": "ecr"
        }
      },
      "request": {
        "method": "PUT",
        "url": "Organization/ccc9d8cf-4198-7065-a0f5-a2f661362b4a"
      }
    },
    {
      "fullUrl": "urn:uuid:4581f291-448a-04ad-0508-e348f799a4b0",
      "resource": {
        "resourceType": "Practitioner",
        "id": "4581f291-448a-04ad-0508-e348f799a4b0",
        "meta": {
          "profile": [
            "http://hl7.org/fhir/us/core/StructureDefinition/us-core-practitioner"
          ],
          "source": "ecr"
        },
        "extension": [
          {
            "url": "http://hl7.org/fhir/StructureDefinition/_datatype",
            "valueString": "Responsible Party"
          }
        ],
        "identifier": [
          {
            "system": "http://hl7.org/fhir/sid/us-npi",
            "value": "66666666666"
          }
        ],
        "name": [
          {
            "family": "Hippocrates",
            "given": ["Harold"],
            "suffix": ["MD"]
          }
        ],
        "address": [
          {
            "use": "home",
            "line": ["1002 Healthcare Drive"],
            "city": "Provo",
            "state": "UT",
            "country": "US",
            "postalCode": "84601"
          }
        ],
        "telecom": [
          {
            "system": "phone",
            "value": "555-777-0123",
            "use": "work"
          }
        ]
      },
      "request": {
        "method": "PUT",
        "url": "Practitioner/4581f291-448a-04ad-0508-e348f799a4b0"
      }
    },
    {
      "resource": {
        "resourceType": "PractitionerRole",
        "id": "e056fd1c-3655-abe8-0ea6-abb58cecfa3c",
        "practitioner": {
          "reference": "Practitioner/4581f291-448a-04ad-0508-e348f799a4b0"
        },
        "organization": {
          "reference": "Organization/daf02ea4-2048-a2c3-e24f-7313a37bd19b"
        },
        "meta": {
          "source": "ecr"
        }
      }
    },
    {
      "fullUrl": "urn:uuid:daf02ea4-2048-a2c3-e24f-7313a37bd19b",
      "resource": {
        "resourceType": "Organization",
        "id": "daf02ea4-2048-a2c3-e24f-7313a37bd19b",
        "identifier": [
          {
            "system": "http://hl7.org/fhir/sid/us-npi",
            "value": "TBDFacility#"
          }
        ],
        "name": "Provo Outpatient Clinic",
        "address": [
          {
            "use": "work",
            "line": ["1002 Healthcare Drive"],
            "city": "Provo",
            "state": "UT",
            "postalCode": "84601"
          }
        ],
        "telecom": [
          {
            "system": "phone",
            "value": "555-777-0123",
            "use": "work"
          }
        ],
        "meta": {
          "source": "ecr"
        }
      },
      "request": {
        "method": "PUT",
        "url": "Organization/daf02ea4-2048-a2c3-e24f-7313a37bd19b"
      }
    },
    {
      "fullUrl": "urn:uuid:50f3c505-0e03-09e3-1ce9-772f460361c2",
      "resource": {
        "resourceType": "Organization",
        "id": "50f3c505-0e03-09e3-1ce9-772f460361c2",
        "meta": {
          "profile": [
            "http://hl7.org/fhir/us/ecr/StructureDefinition/rr-routing-entity-organization"
          ],
          "source": "ecr"
        },
        "active": true,
        "type": [
          {
            "coding": [
              {
                "system": "urn:oid:2.16.840.1.114222.4.5.232",
                "code": "RR7",
                "display": "Routing Entity"
              }
            ]
          }
        ],
        "name": "Utah Department of Health"
      },
      "request": {
        "method": "PUT",
        "url": "Organization/50f3c505-0e03-09e3-1ce9-772f460361c2"
      }
    },
    {
      "fullUrl": "urn:uuid:5bca6972-8606-4310-9bb7-08b2e16fa17e",
      "resource": {
        "resourceType": "Observation",
        "id": "5bca6972-8606-4310-9bb7-08b2e16fa17e",
        "meta": {
          "profile": [
            "http://hl7.org/fhir/us/ecr/StructureDefinition/rr-reportability-information-observation"
          ],
          "source": "ecr"
        },
        "identifier": [
          {
            "system": "urn:ietf:rfc:3986",
            "value": "urn:uuid:5bca6972-8606-4310-9bb7-08b2e16fa17e"
          }
        ],
        "status": "final",
        "code": {
          "coding": [
            {
              "code": "64572001",
              "display": "Condition",
              "system": "http://snomed.info/sct"
            },
            {
              "code": "75323-6",
              "display": "Condition",
              "system": "http://loinc.org"
            }
          ]
        },
        "valueCodeableConcept": {
          "coding": [
            {
              "code": "15628003",
              "display": "Gonorrhea (disorder)",
              "system": "http://snomed.info/sct"
            }
          ]
        },
        "extension": [
          {
            "url": "http://hl7.org/fhir/us/ecr/StructureDefinition/us-ph-determination-of-reportability-rule-extension",
            "valueString": "All results of tests for                                                  detection of Neisseria gonorrhoeae nucleic acid in                                                  a clinical specimen by any method (i.e., ‘all’                                                  nucleic acid test results)"
          },
          {
            "url": "http://hl7.org/fhir/us/ecr/StructureDefinition/us-ph-determination-of-reportability-rule-extension",
            "valueString": "Detection of Neisseria                                                  gonorrhoeae nucleic acid by any method in a                                                  clinical specimen, including the following                                                  methods: - nucleic acid by hybridization with a                                                  nucleic acid probe - nucleic acid amplification                                                  (e.g., PCR)"
          }
        ],
        "performer": [
          {
            "reference": "Organization/50f3c505-0e03-09e3-1ce9-772f460361c2",
            "display": "Utah Department of Health"
          }
        ]
      },
      "request": {
        "method": "PUT",
        "url": "Observation/5bca6972-8606-4310-9bb7-08b2e16fa17e"
      }
    },
    {
      "fullUrl": "urn:uuid:7c33ab36-0229-4bac-9508-0bb3cd203c85",
      "resource": {
        "resourceType": "Observation",
        "id": "7c33ab36-0229-4bac-9508-0bb3cd203c85",
        "meta": {
          "profile": [
            "http://hl7.org/fhir/us/ecr/StructureDefinition/rr-reportability-information-observation"
          ],
          "source": "ecr"
        },
        "identifier": [
          {
            "system": "urn:ietf:rfc:3986",
            "value": "urn:uuid:7c33ab36-0229-4bac-9508-0bb3cd203c85"
          }
        ],
        "status": "final",
        "code": {
          "coding": [
            {
              "code": "64572001",
              "display": "Condition",
              "system": "http://snomed.info/sct"
            },
            {
              "code": "75323-6",
              "display": "Condition",
              "system": "http://loinc.org"
            }
          ]
        },
        "valueCodeableConcept": {
          "coding": [
            {
              "code": "105629000",
              "display": "Chlamydial infection (disorder)",
              "system": "http://snomed.info/sct"
            }
          ]
        },
        "extension": [
          {
            "url": "http://hl7.org/fhir/us/ecr/StructureDefinition/us-ph-determination-of-reportability-rule-extension",
            "valueString": "All results of tests for                                                  detection of Chlamydia trachomatis nucleic acid in                                                  a clinical specimen by any method (i.e., ‘all’                                                  nucleic acid test results)"
          }
        ],
        "performer": [
          {
            "reference": "Organization/50f3c505-0e03-09e3-1ce9-772f460361c2",
            "display": "Utah Department of Health"
          }
        ]
      },
      "request": {
        "method": "PUT",
        "url": "Observation/7c33ab36-0229-4bac-9508-0bb3cd203c85"
      }
    },
    {
      "fullUrl": "urn:uuid:e5d840c1-d6be-4c1d-b196-672cbf097a09",
      "resource": {
        "resourceType": "Observation",
        "id": "e5d840c1-d6be-4c1d-b196-672cbf097a09",
        "meta": {
          "profile": [
            "http://hl7.org/fhir/us/ecr/StructureDefinition/rr-reportability-information-observation"
          ],
          "source": "ecr"
        },
        "identifier": [
          {
            "system": "urn:ietf:rfc:3986",
            "value": "urn:uuid:e5d840c1-d6be-4c1d-b196-672cbf097a09"
          }
        ],
        "status": "final",
        "code": {
          "coding": [
            {
              "code": "64572001",
              "display": "Condition",
              "system": "http://snomed.info/sct"
            },
            {
              "code": "75323-6",
              "display": "Condition",
              "system": "http://loinc.org"
            }
          ]
        },
        "valueCodeableConcept": {
          "coding": [
            {
              "code": "840539006",
              "display": "Disease caused by severe acute respiratory syndrome coronavirus 2 (disorder)",
              "system": "http://snomed.info/sct"
            }
          ]
        },
        "extension": [
          {
            "url": "http://hl7.org/fhir/us/ecr/StructureDefinition/us-ph-determination-of-reportability-rule-extension",
            "valueString": "All results of tests for                                                  detection of SARS-CoV-2 nucleic acid in a clinical                                                  specimen by any method "
          }
        ],
        "performer": [
          {
            "reference": "Organization/50f3c505-0e03-09e3-1ce9-772f460361c2",
            "display": "Utah Department of Health"
          }
        ]
      },
      "request": {
        "method": "PUT",
        "url": "Observation/e5d840c1-d6be-4c1d-b196-672cbf097a09"
      }
    },
    {
      "fullUrl": "urn:uuid:0525caf2-b5bb-1452-cccf-9bcf972fe55e",
      "resource": {
        "resourceType": "Device",
        "id": "0525caf2-b5bb-1452-cccf-9bcf972fe55e",
        "identifier": [
          {
            "system": "urn:ietf:rfc:3986",
            "value": "urn:uuid:2.16.840.1.113883.3.72.5.20"
          }
        ],
        "property": [
          {
            "type": {
              "coding": [
                {
                  "system": "http://hl7.org/fhir/device-category",
                  "code": "software",
                  "display": "software"
                }
              ]
            }
          }
        ],
        "meta": {
          "source": "ecr"
        }
      },
      "request": {
        "method": "PUT",
        "url": "Device/0525caf2-b5bb-1452-cccf-9bcf972fe55e"
      }
    },
    {
      "fullUrl": "urn:uuid:e599cb41-5e59-4956-9844-47e571646627",
      "resource": {
        "resourceType": "Patient",
        "id": "e599cb41-5e59-4956-9844-47e571646627",
        "meta": {
          "profile": [
            "http://hl7.org/fhir/us/core/StructureDefinition/us-core-patient"
          ],
          "source": "ecr"
        },
        "identifier": [
          {
            "system": "urn:oid:2.16.840.1.113883.19.5",
            "value": "PT-470125"
          },
          {
            "system": "http://hl7.org/fhir/sid/us-ssn",
            "value": "333-33-3333"
          }
        ],
        "name": [
          {
            "use": "official",
            "family": "Adam",
            "given": ["Everyman"]
          }
        ],
        "birthDate": "1967-09-13",
        "deceasedBoolean": false,
        "gender": "male",
        "extension": [
          {
            "url": "http://hl7.org/fhir/us/core/StructureDefinition/us-core-race",
            "extension": [
              {
                "url": "ombCategory",
                "valueCoding": {
                  "code": "2054-5",
                  "display": "Black or African American"
                }
              },
              {
                "url": "text",
                "valueString": "Black or African American"
              }
            ]
          },
          {
            "url": "http://hl7.org/fhir/us/core/StructureDefinition/us-core-ethnicity",
            "extension": [
              {
                "url": "ombCategory",
                "valueCoding": {
                  "code": "2186-5",
                  "display": "Not Hispanic or Latino"
                }
              },
              {
                "url": "text",
                "valueString": "Not Hispanic or Latino"
              }
            ]
          }
        ],
        "address": [
          {
            "use": "home",
            "line": ["0987 Home Street"],
            "city": "Provo",
            "state": "UT",
            "country": "US",
            "postalCode": "84601"
          }
        ],
        "telecom": [
          {
            "system": "phone",
            "value": "555-555-2003",
            "use": "home"
          }
        ],
        "contact": [
          {
            "name": [
              {
                "use": "official",
                "family": "Contact",
                "given": ["Emer"],
                "prefix": ["Mr"]
              }
            ],
            "telecom": [
              {
                "system": "phone",
                "value": "+1-555-555-3456",
                "use": "mobile"
              }
            ]
          }
        ],
        "communication": [
          {
            "language": {
              "coding": [
                {
                  "system": "urn:ietf:bcp:47",
                  "code": "en",
                  "display": "English"
                }
              ]
            },
            "preferred": true
          }
        ]
      },
      "request": {
        "method": "PUT",
        "url": "Patient/e599cb41-5e59-4956-9844-47e571646627"
      }
    },
    {
      "fullUrl": "urn:uuid:",
      "resource": {
        "resourceType": "CareTeam",
        "subject": {
          "reference": "Patient/e599cb41-5e59-4956-9844-47e571646627"
        },
        "meta": {
          "source": "ecr"
        }
      }
    },
    {
      "fullUrl": "urn:uuid:",
      "resource": {
        "resourceType": "CarePlan",
        "status": "unknown",
        "intent": "proposal",
        "subject": {
          "reference": "Patient/e599cb41-5e59-4956-9844-47e571646627"
        },
        "meta": {
          "source": "ecr"
        }
      },
      "request": {
        "method": "PUT",
        "url": "CarePlan/"
      }
    },
    {
      "fullUrl": "urn:uuid:898d45b3-55b3-fdab-ba89-fe5279029e34",
      "resource": {
        "resourceType": "DiagnosticReport",
        "id": "898d45b3-55b3-fdab-ba89-fe5279029e34",
        "identifier": [
          {
            "system": "urn:ietf:rfc:3986",
            "value": "urn:uuid:24323852-d5a0-47bd-9d0d-8dea227b84ad"
          }
        ],
        "status": "final",
        "code": {
          "coding": [
            {
              "code": "57180-2",
              "display": "Neisseria gonorrhoeae DNA [Presence] in Nasopharynx by NAA with probe detection",
              "system": "http://loinc.org"
            }
          ]
        },
        "subject": {
          "reference": "Patient/e599cb41-5e59-4956-9844-47e571646627"
        },
        "result": [
          {
            "reference": "Observation/41832eda-226d-a99d-8cf2-71592f938e70"
          }
        ],
        "meta": {
          "source": "ecr"
        }
      },
      "request": {
        "method": "PUT",
        "url": "DiagnosticReport/898d45b3-55b3-fdab-ba89-fe5279029e34"
      }
    },
    {
      "fullUrl": "urn:uuid:41832eda-226d-a99d-8cf2-71592f938e70",
      "resource": {
        "resourceType": "Observation",
        "id": "41832eda-226d-a99d-8cf2-71592f938e70",
        "meta": {
          "profile": [
            "http://hl7.org/fhir/us/core/StructureDefinition/us-core-observationresults"
          ],
          "source": "ecr"
        },
        "identifier": [
          {
            "system": "urn:oid:2.16.840.1.113883.4.945.1",
            "value": "http://localhost:4080/Observation/scenario-3-observation-2/_history/21532502-fcbf-470c-9e5e-71b7f4d3830c"
          }
        ],
        "category": [
          {
            "coding": [
              {
                "system": "http://terminology.hl7.org/CodeSystem/observation-category",
                "code": "laboratory"
              }
            ]
          }
        ],
        "status": "final",
        "code": {
          "coding": [
            {
              "code": "57180-2",
              "display": "Neisseria gonorrhoeae DNA [Presence] in Nasopharynx by NAA with probe detection",
              "system": "http://loinc.org"
            }
          ]
        },
        "effectiveDateTime": "2020-05-13T15:30:00Z",
        "valueCodeableConcept": {
          "coding": [
            {
              "code": "260373001",
              "display": "Detected (qualifier value)",
              "system": "http://snomed.info/sct"
            }
          ]
        },
        "interpretation": [
          {
            "coding": [
              {
                "code": "A",
                "display": "Abnormal",
                "system": "http://terminology.hl7.org/CodeSystem/v3-ObservationInterpretation"
              }
            ]
          }
        ],
        "subject": {
          "reference": "Patient/e599cb41-5e59-4956-9844-47e571646627"
        }
      },
      "request": {
        "method": "PUT",
        "url": "Observation/41832eda-226d-a99d-8cf2-71592f938e70"
      }
    },
    {
      "fullUrl": "urn:uuid:543e97f9-6d48-ebc6-1e93-15209394e805",
      "resource": {
        "resourceType": "DiagnosticReport",
        "id": "543e97f9-6d48-ebc6-1e93-15209394e805",
        "identifier": [
          {
            "system": "urn:ietf:rfc:3986",
            "value": "urn:uuid:94fc09ba-06a8-40df-84f9-c68270da1440"
          }
        ],
        "status": "final",
        "code": {
          "coding": [
            {
              "code": "53926-2",
              "display": "Chlamydia trachomatis rRNA [Presence] in Vaginal fluid by NAA with probe detection",
              "system": "http://loinc.org"
            }
          ]
        },
        "subject": {
          "reference": "Patient/e599cb41-5e59-4956-9844-47e571646627"
        },
        "result": [
          {
            "reference": "Observation/b8a7f072-9694-1912-2763-a4442e351e33"
          }
        ],
        "meta": {
          "source": "ecr"
        }
      },
      "request": {
        "method": "PUT",
        "url": "DiagnosticReport/543e97f9-6d48-ebc6-1e93-15209394e805"
      }
    },
    {
      "fullUrl": "urn:uuid:b8a7f072-9694-1912-2763-a4442e351e33",
      "resource": {
        "resourceType": "Observation",
        "id": "b8a7f072-9694-1912-2763-a4442e351e33",
        "meta": {
          "profile": [
            "http://hl7.org/fhir/us/core/StructureDefinition/us-core-observationresults"
          ],
          "source": "ecr"
        },
        "identifier": [
          {
            "system": "urn:oid:2.16.840.1.113883.4.945.1",
            "value": "http://localhost:4080/Observation/scenario-3-observation-1/_history/d3b78eb6-8926-4ea2-9b01-55b1162d978e"
          }
        ],
        "category": [
          {
            "coding": [
              {
                "system": "http://terminology.hl7.org/CodeSystem/observation-category",
                "code": "laboratory"
              }
            ]
          }
        ],
        "status": "final",
        "code": {
          "coding": [
            {
              "code": "53926-2",
              "display": "Chlamydia trachomatis rRNA [Presence] in Vaginal fluid by NAA with probe detection",
              "system": "http://loinc.org"
            }
          ]
        },
        "effectiveDateTime": "2020-05-13T15:30:00Z",
        "valueCodeableConcept": {
          "coding": [
            {
              "code": "260415000",
              "display": "Not Detected",
              "system": "http://snomed.info/sct"
            }
          ]
        },
        "interpretation": [
          {
            "coding": [
              {
                "code": "N",
                "display": "Normal",
                "system": "http://terminology.hl7.org/CodeSystem/v3-ObservationInterpretation"
              }
            ]
          }
        ],
        "subject": {
          "reference": "Patient/e599cb41-5e59-4956-9844-47e571646627"
        }
      },
      "request": {
        "method": "PUT",
        "url": "Observation/b8a7f072-9694-1912-2763-a4442e351e33"
      }
    },
    {
      "fullUrl": "urn:uuid:02e06a32-8e3a-044a-30bf-a847826541e1",
      "resource": {
        "resourceType": "DiagnosticReport",
        "id": "02e06a32-8e3a-044a-30bf-a847826541e1",
        "identifier": [
          {
            "system": "urn:ietf:rfc:3986",
            "value": "urn:uuid:bcf43cb4-6d72-474f-975d-352c6a233734"
          }
        ],
        "status": "final",
        "code": {
          "coding": [
            {
              "code": "94310-0",
              "display": "SARS-like Coronavirus N gene [Presence] in Unspecified specimen by NAA with probe detection",
              "system": "http://loinc.org"
            }
          ]
        },
        "subject": {
          "reference": "Patient/e599cb41-5e59-4956-9844-47e571646627"
        },
        "result": [
          {
            "reference": "Observation/d8cd84c5-7ef8-9118-7c7f-4efb4f7e3dab"
          }
        ],
        "meta": {
          "source": "ecr"
        }
      },
      "request": {
        "method": "PUT",
        "url": "DiagnosticReport/02e06a32-8e3a-044a-30bf-a847826541e1"
      }
    },
    {
      "fullUrl": "urn:uuid:d8cd84c5-7ef8-9118-7c7f-4efb4f7e3dab",
      "resource": {
        "resourceType": "Observation",
        "id": "d8cd84c5-7ef8-9118-7c7f-4efb4f7e3dab",
        "meta": {
          "profile": [
            "http://hl7.org/fhir/us/core/StructureDefinition/us-core-observationresults"
          ],
          "source": "ecr"
        },
        "identifier": [
          {
            "system": "urn:oid:2.16.840.1.113883.4.945.1",
            "value": "http://localhost:4080/Observation/scenario-3-observation-3/_history/cf098ab8-e3d7-4c1b-8272-43536d093cf0"
          }
        ],
        "category": [
          {
            "coding": [
              {
                "system": "http://terminology.hl7.org/CodeSystem/observation-category",
                "code": "laboratory"
              }
            ]
          }
        ],
        "status": "final",
        "code": {
          "coding": [
            {
              "code": "94310-0",
              "display": "SARS-like Coronavirus N gene [Presence] in Unspecified specimen by NAA with probe detection",
              "system": "http://loinc.org"
            }
          ]
        },
        "effectiveDateTime": "2020-05-14T15:30:00Z",
        "valueCodeableConcept": {
          "coding": [
            {
              "code": "260415000",
              "display": "Not Detected",
              "system": "http://snomed.info/sct"
            }
          ]
        },
        "interpretation": [
          {
            "coding": [
              {
                "code": "N",
                "display": "Normal",
                "system": "http://terminology.hl7.org/CodeSystem/v3-ObservationInterpretation"
              }
            ]
          }
        ],
        "subject": {
          "reference": "Patient/e599cb41-5e59-4956-9844-47e571646627"
        }
      },
      "request": {
        "method": "PUT",
        "url": "Observation/d8cd84c5-7ef8-9118-7c7f-4efb4f7e3dab"
      }
    },
    {
      "fullUrl": "urn:uuid:ccdff1d8-9f24-7852-e877-c8fa409940bb",
      "resource": {
        "resourceType": "Observation",
        "id": "ccdff1d8-9f24-7852-e877-c8fa409940bb",
        "meta": {
          "profile": [
            "http://hl7.org/fhir/us/core/StructureDefinition/us-core-observationresults"
          ],
          "source": "ecr"
        },
        "category": [
          {
            "coding": [
              {
                "system": "http://terminology.hl7.org/CodeSystem/observation-category",
                "code": "social-history"
              }
            ]
          }
        ],
        "status": "final",
        "code": {
          "coding": [
            {
              "code": "76689-9",
              "display": "Sex Assigned At Birth",
              "system": "http://loinc.org"
            }
          ]
        },
        "effectiveDateTime": "1967-09-13",
        "valueCodeableConcept": {
          "coding": [
            {
              "code": "M",
              "display": "Male",
              "system": "urn:oid:2.16.840.1.113883.5.1"
            }
          ]
        },
        "subject": {
          "reference": "Patient/e599cb41-5e59-4956-9844-47e571646627"
        }
      },
      "request": {
        "method": "PUT",
        "url": "Observation/ccdff1d8-9f24-7852-e877-c8fa409940bb"
      }
    },
    {
      "fullUrl": "urn:uuid:",
      "resource": {
        "resourceType": "Observation",
        "meta": {
          "profile": [
            "http://hl7.org/fhir/us/core/StructureDefinition/us-core-observationresults"
          ],
          "source": "ecr"
        }
      },
      "request": {
        "method": "PUT",
        "url": "Observation/"
      }
    }
  ]
}
