{
  "resourceType": "Bundle",
  "type": "batch",
  "entry": [
    {
      "fullUrl": "urn:uuid:9408ddce-4dcb-416c-a153-82cce01839e2",
      "resource": {
        "resourceType": "Composition",
        "id": "9408ddce-4dcb-416c-a153-82cce01839e2",
        "meta": {
          "profile": [
            "http://hl7.org/fhir/us/ecr/StructureDefinition/eicr-composition"
          ],
          "source": "ecr"
        },
        "identifier": [
          {
            "use": "official",
            "type": {
              "coding": [
                {
                  "code": "55751-2",
                  "display": "Public Health Case Report",
                  "system": "http://loinc.org"
                }
              ]
            },
            "value": "8d86218e-0fea-11eb-8216-a80388425cfb"
          }
        ],
        "extension": [
          {
            "url": "http://hl7.org/fhir/StructureDefinition/composition-clinicaldocument-versionNumber",
            "valueString": "1"
          }
        ],
        "status": "final",
        "type": {
          "coding": [
            {
              "code": "55751-2",
              "display": "Public Health Case Report",
              "system": "http://loinc.org"
            }
          ]
        },
        "date": "2020-05-05T15:00:45-04:00",
        "title": "Initial Public Health Case Report",
        "confidentiality": "N",
        "section": [
          {
            "id": "8ebb7541-c11a-c03b-a565-87a4811437c5",
            "title": "Encounters",
            "text": {
              "status": "generated",
              "div": "<table><thead><tr><th>Encounter</th><th>Date(s)</th><th>Location</th></tr></thead><tbody><tr><!-- data-id: id_8c69827d-fc6e-4580-a1af-17f03078bbf0_ref --><td>Office outpatient visit 15 minutes</td><td>05/13/2020</td><td>New York City Outpatient Clinic</td></tr><tr><td><ul><li><table><thead><tr></tr></thead><tbody><tr></tr></tbody></table></li></ul></td></tr></tbody></table>"
            },
            "code": {
              "coding": [
                {
                  "code": "46240-8",
                  "display": "History of encounters",
                  "system": "http://loinc.org"
                }
              ]
            },
            "mode": "snapshot"
          },
          {
            "id": "0917b7e8-b854-fcc4-1d3f-9ac65a881d91",
            "title": "History of Present Illness",
            "text": {
              "status": "generated",
              "div": "<paragraph>fever, cough, exposure to COVID-19 hot zone;</paragraph>"
            },
            "code": {
              "coding": [
                {
                  "code": "10164-2",
                  "display": "History of Present Illness",
                  "system": "http://loinc.org"
                }
              ]
            },
            "mode": "snapshot"
          },
          {
            "id": "e9466741-8c4f-69b6-1161-784fead85325",
            "title": "Medications Administered",
            "text": {
              "status": "generated",
              "div": "No medications administered"
            },
            "code": {
              "coding": [
                {
                  "code": "29549-3",
                  "display": "Medications Administered",
                  "system": "http://loinc.org"
                }
              ]
            },
            "mode": "snapshot"
          },
          {
            "id": "11ea7a42-5015-baa2-049b-35fef4b96b9f",
            "title": "Problem List",
            "text": {
              "status": "generated",
              "div": "<table><thead><tr><th>Concern</th><th>Concern Status</th><th>Date(s)</th></tr></thead><tbody><tr><!-- data-id: id_420ffc00-7bd3-4191-82cd-1ebd4367f6a6_ref --><td>Problem</td><td>active</td><td>05/13/2020</td></tr><tr><td><ul><li><paragraph>*** In the table below, row entries with values under RCTC columns triggered this Electronic Initial Case Report (eICR)</paragraph><table><thead><tr><th>Problem Type</th><th>Problem</th><th>Date(s)</th><th>Code</th><th>Code System</th><th>RCTC OID ***</th><th>RCTC Version ***</th></tr></thead><tbody><tr><td>symptom</td><td>Difficulty Breathing )finding)</td><td>05/13/2020</td><td>230145002</td><td>SNOMED-CT</td><td></td><td></td></tr><tr><td>symptom</td><td></td><td></td><td></td><td></td><td></td><td></td></tr></tbody></table></li></ul></td></tr></tbody></table>"
            },
            "code": {
              "coding": [
                {
                  "code": "11450-4",
                  "display": "Problem List",
                  "system": "http://loinc.org"
                }
              ]
            },
            "mode": "snapshot",
            "entry": [
              {
                "display": "Problem - Difficulty Breathing )finding)",
                "reference": "Condition/78f39666-0145-0e4e-6b21-57670c3914ee"
              }
            ]
          },
          {
            "id": "5b805552-e15e-b453-b152-0deb0fc37b05",
            "title": "Reason for visit",
            "text": {
              "status": "generated",
              "div": "<paragraph>fever, cough, exposure to COVID-19 hot zone</paragraph>"
            },
            "code": {
              "coding": [
                {
                  "code": "29299-5",
                  "display": "Reason for visit",
                  "system": "http://loinc.org"
                }
              ]
            },
            "mode": "snapshot",
            "extension": [
              {
                "url": "http://hl7.org/fhir/cda/ccda/StructureDefinition/2.16.840.1.113883.10.20.22.2.12",
                "valueString": "fever, cough, exposure to COVID-19 hot zone                                    "
              }
            ]
          },
          {
            "id": "d5809386-0f35-f083-eb38-f04ed57374ae",
            "title": "Results",
            "text": {
              "status": "generated",
              "div": "No Lab Results"
            },
            "code": {
              "coding": [
                {
                  "code": "30954-2",
                  "display": "Relevant diagnostic tests and/or laboratory data",
                  "system": "http://loinc.org"
                }
              ]
            },
            "mode": "snapshot"
          },
          {
            "id": "75bcae54-f07a-6a38-d83d-c712dbcccb05",
            "title": "Plan of Treatment",
            "text": {
              "status": "generated",
              "div": "<paragraph>*** In the table below, row entries with values under RCTC columns triggered this Electronic Initial Case Report (eICR)</paragraph><table><thead><tr><th>Lab Test Order</th><th>Code</th><th>CodeSystem</th><th>RCTC OID ***</th><th>RCTC Version ***</th><th>Ordered Date</th></tr></thead><tbody><tr><!-- data-id: id_f2a3031b-f71a-4296-9bcd-fdf30031f68f_ref --><td>SARS-like Coronavirus N gene [Presence] in Unspecified specimen by NAA with probe detection</td><td>94310-0</td><td>LOINC</td><td>2.16.840.1.114222.4.11.7508</td><td>20200429</td><td>05/13/2020</td></tr></tbody></table>"
            },
            "code": {
              "coding": [
                {
                  "code": "18776-5",
                  "display": "Plan of Treatment",
                  "system": "http://loinc.org"
                }
              ]
            },
            "mode": "snapshot"
          },
          {
            "id": "0e17dd55-2f52-a1ef-7353-8104c9f0b5e4",
            "title": "Social History",
            "text": {
              "status": "generated",
              "div": "<table><thead><tr><th>Birth Sex</th><th>Value</th><th>Date</th></tr></thead><tbody><tr><td>Sex Assigned At Birth</td><td>Female</td><td></td></tr></tbody></table><table><thead><tr><th>Social History Observation Type</th><th>Value</th><th>Dates(s)</th></tr></thead><tbody><tr><!-- data-id: id_db524287-4744-4ff8-a496-d775755a1ef2_ref --><td>Occupation / Employment details</td><td>Sales</td><td></td></tr><tr><td>Pregnancy Status</td><td>No</td><td></td></tr></tbody></table><table><thead><tr><th>Travel History: Date(s)</th><th>Notes</th><th>Location</th></tr></thead><tbody><tr><!-- data-id: id_2ebe259e-2561-4362-8964-17f68ea95582_ref --><td>04/20/2020 - 05/10/2020</td><td>Recent travel to China</td><td></td></tr></tbody></table>"
            },
            "code": {
              "coding": [
                {
                  "code": "29762-2",
                  "display": "Social History",
                  "system": "http://loinc.org"
                }
              ]
            },
            "mode": "snapshot"
          },
          {
            "id": "9d35ef85-9fe8-3a80-5091-d0e53deb0e76",
            "title": "Reportability Response Information Section",
            "text": {
              "status": "generated",
              "div": "<div xmlns=\"http://www.w3.org/1999/xhtml\">Reportability Response Information Section</div>"
            },
            "extension": [
              {
                "url": "http://hl7.org/fhir/us/ecr/StructureDefinition/rr-composition",
                "valueIdentifier": {
                  "use": "official",
                  "type": {
                    "coding": [
                      {
                        "code": "88085-6",
                        "display": "Reportability response report Document Public health",
                        "system": "http://loinc.org"
                      }
                    ]
                  },
                  "value": "9f33931b-d204-4e2b-9f26-50f0dc59b5a0"
                }
              },
              {
                "url": "http://hl7.org/fhir/us/ecr/StructureDefinition/rr-eicr-processing-status-extension",
                "valueCodeableConcept": {
                  "coding": [
                    {
                      "code": "RRVS19",
                      "display": "eICR processed",
                      "system": "urn:oid:2.16.840.1.114222.4.5.274"
                    }
                  ]
                }
              }
            ],
            "code": {
              "coding": [
                {
                  "code": "88085-6",
                  "display": "Reportability response report Document Public health",
                  "system": "http://loinc.org"
                }
              ]
            },
            "entry": [
              {
                "display": "Relevant Reportable Condition Observation - Disease caused by severe acute respiratory syndrome coronavirus 2 (disorder)",
                "reference": "Observation/660b717b-9258-4ba2-8e5e-f446586dce22"
              }
            ]
          }
        ],
        "subject": {
          "reference": "Patient/f11a7b30-0662-47cd-89e7-8b78275622fd"
        },
        "encounter": {
          "reference": "Encounter/c255531b-30ae-0c77-685a-7a0e9f8e96ae"
        },
        "custodian": {
          "reference": "Organization/daf02ea4-2048-a2c3-e24f-7313a37bd19b"
        },
        "author": [
          {
            "reference": "Device/ab1beccd-9344-f69c-9433-10662fa15c9e"
          }
        ]
      },
      "request": {
        "method": "PUT",
        "url": "Composition/9408ddce-4dcb-416c-a153-82cce01839e2"
      }
    },
    {
      "fullUrl": "urn:uuid:c255531b-30ae-0c77-685a-7a0e9f8e96ae",
      "resource": {
        "resourceType": "Encounter",
        "id": "c255531b-30ae-0c77-685a-7a0e9f8e96ae",
        "status": "unknown",
        "class": {
          "code": "AMB",
          "display": "Ambulatory",
          "system": "urn:oid:2.16.840.1.113883.5.4"
        },
        "identifier": [
          {
            "system": "urn:oid:2.16.840.1.113883.19",
            "value": "9937013"
          }
        ],
        "period": {
          "start": "2020-05-13",
          "end": "2020-05-13"
        },
        "subject": {
          "reference": "Patient/f11a7b30-0662-47cd-89e7-8b78275622fd"
        },
        "location": [
          {
            "id": "2.16.840.1.113883.4.6",
            "location": {
              "reference": "Location/8d782fb2-9277-2b42-48a2-d3f3054c3c4a",
              "display": "New York City Outpatient                                          Clinic"
            },
            "extension": [
              {
                "url": "http://build.fhir.org/ig/HL7/case-reporting/StructureDefinition-us-ph-location-definitions.html#Location.type",
                "valueCodeableConcept": {
                  "coding": [
                    {
                      "code": "OF",
                      "display": "Outpatient Facility",
                      "system": "urn:oid:2.16.840.1.113883.5.111"
                    }
                  ]
                }
              }
            ]
          }
        ],
        "serviceProvider": {
          "reference": "Organization/1651090f-e61e-b802-7fe1-0b21a18115f7"
        },
        "participant": [
          {
            "type": [
              {
                "coding": [
                  {
                    "system": "http://terminology.hl7.org/CodeSystem/v3-ParticipationType",
                    "code": "ATND"
                  }
                ]
              }
            ],
            "individual": {
              "reference": "PractitionerRole/de0f4989-b7ac-6e7b-9a24-2709608dec0b"
            }
          }
        ],
        "meta": {
          "source": "ecr"
        }
      },
      "request": {
        "method": "PUT",
        "url": "Encounter/c255531b-30ae-0c77-685a-7a0e9f8e96ae"
      }
    },
    {
      "fullUrl": "urn:uuid:8d782fb2-9277-2b42-48a2-d3f3054c3c4a",
      "resource": {
        "resourceType": "Location",
        "id": "8d782fb2-9277-2b42-48a2-d3f3054c3c4a",
        "identifier": [
          {
            "system": "http://hl7.org/fhir/sid/us-npi",
            "value": "9554"
          }
        ],
        "name": "New York City Outpatient                                          Clinic",
        "address": {
          "use": "work",
          "line": ["0987 Facility Drive"],
          "city": "New York City",
          "state": "NY",
          "postalCode": "10012"
        },
        "telecom": [
          {
            "system": "phone",
            "value": "555-234-5678",
            "use": "work"
          }
        ],
        "type": [
          {
            "coding": [
              {
                "code": "OF",
                "display": "Outpatient Facility",
                "system": "urn:oid:2.16.840.1.113883.5.111"
              }
            ]
          }
        ],
        "meta": {
          "source": "ecr"
        }
      },
      "request": {
        "method": "PUT",
        "url": "Location/8d782fb2-9277-2b42-48a2-d3f3054c3c4a"
      }
    },
    {
      "fullUrl": "urn:uuid:1651090f-e61e-b802-7fe1-0b21a18115f7",
      "resource": {
        "resourceType": "Organization",
        "id": "1651090f-e61e-b802-7fe1-0b21a18115f7",
        "name": "New York City Outpatient                                          Clinic",
        "address": [
          {
            "use": "work",
            "line": ["0987 Facility Drive"],
            "city": "New York City",
            "state": "NY",
            "postalCode": "10012"
          }
        ],
        "telecom": [
          {
            "system": "phone",
            "value": "555-234-5678",
            "use": "work"
          }
        ],
        "meta": {
          "source": "ecr"
        }
      },
      "request": {
        "method": "PUT",
        "url": "Organization/1651090f-e61e-b802-7fe1-0b21a18115f7"
      }
    },
    {
      "fullUrl": "urn:uuid:4581f291-448a-04ad-0508-e348f799a4b0",
      "resource": {
        "resourceType": "Practitioner",
        "id": "4581f291-448a-04ad-0508-e348f799a4b0",
        "meta": {
          "profile": [
            "http://hl7.org/fhir/us/core/StructureDefinition/us-core-practitioner"
          ],
          "source": "ecr"
        },
        "extension": [
          {
            "url": "http://hl7.org/fhir/StructureDefinition/_datatype",
            "valueString": "Responsible Party"
          }
        ],
        "identifier": [
          {
            "system": "http://hl7.org/fhir/sid/us-npi",
            "value": "66666666666"
          }
        ],
        "name": [
          {
            "family": "Assigned",
            "given": ["Amanda"],
            "suffix": ["MD"]
          }
        ],
        "address": [
          {
            "use": "home",
            "line": ["1234 Provider Street"],
            "city": "New York City",
            "state": "NY",
            "country": "US",
            "postalCode": "10012",
            "district": "New York County"
          }
        ],
        "telecom": [
          {
            "system": "phone",
            "value": "555-777-0123",
            "use": "work"
          }
        ]
      },
      "request": {
        "method": "PUT",
        "url": "Practitioner/4581f291-448a-04ad-0508-e348f799a4b0"
      }
    },
    {
      "resource": {
        "resourceType": "PractitionerRole",
        "id": "de0f4989-b7ac-6e7b-9a24-2709608dec0b",
        "practitioner": {
          "reference": "Practitioner/4581f291-448a-04ad-0508-e348f799a4b0"
        },
        "organization": {
          "reference": "Organization/daf02ea4-2048-a2c3-e24f-7313a37bd19b"
        },
        "meta": {
          "source": "ecr"
        }
      }
    },
    {
      "fullUrl": "urn:uuid:daf02ea4-2048-a2c3-e24f-7313a37bd19b",
      "resource": {
        "resourceType": "Organization",
        "id": "daf02ea4-2048-a2c3-e24f-7313a37bd19b",
        "identifier": [
          {
            "system": "http://hl7.org/fhir/sid/us-npi",
            "value": "TBDFacility#"
          }
        ],
        "name": "New York City Outpatient Clinic",
        "address": [
          {
            "use": "work",
            "line": ["0987 Facility Drive"],
            "city": "New York City",
            "state": "NY",
            "postalCode": "10012"
          }
        ],
        "telecom": [
          {
            "system": "phone",
            "value": "555-555-5678",
            "use": "work"
          }
        ],
        "meta": {
          "source": "ecr"
        }
      },
      "request": {
        "method": "PUT",
        "url": "Organization/daf02ea4-2048-a2c3-e24f-7313a37bd19b"
      }
    },
    {
      "fullUrl": "urn:uuid:8f363e21-f075-76ff-893a-2e444cc605c9",
      "resource": {
        "resourceType": "Organization",
        "id": "8f363e21-f075-76ff-893a-2e444cc605c9",
        "meta": {
          "profile": [
            "http://hl7.org/fhir/us/ecr/StructureDefinition/rr-routing-entity-organization"
          ],
          "source": "ecr"
        },
        "active": true,
        "type": [
          {
            "coding": [
              {
                "system": "urn:oid:2.16.840.1.114222.4.5.232",
                "code": "RR7",
                "display": "Routing Entity"
              }
            ]
          }
        ],
        "name": "New York City Department of Health and                                                  Mental Hygiene"
      },
      "request": {
        "method": "PUT",
        "url": "Organization/8f363e21-f075-76ff-893a-2e444cc605c9"
      }
    },
    {
      "fullUrl": "urn:uuid:660b717b-9258-4ba2-8e5e-f446586dce22",
      "resource": {
        "resourceType": "Observation",
        "id": "660b717b-9258-4ba2-8e5e-f446586dce22",
        "meta": {
          "profile": [
            "http://hl7.org/fhir/us/ecr/StructureDefinition/rr-reportability-information-observation"
          ],
          "source": "ecr"
        },
        "identifier": [
          {
            "system": "urn:ietf:rfc:3986",
            "value": "urn:uuid:660b717b-9258-4ba2-8e5e-f446586dce22"
          }
        ],
        "status": "final",
        "code": {
          "coding": [
            {
              "code": "64572001",
              "display": "Condition",
              "system": "http://snomed.info/sct"
            },
            {
              "code": "75323-6",
              "display": "Condition",
              "system": "http://loinc.org"
            }
          ]
        },
        "valueCodeableConcept": {
          "coding": [
            {
              "code": "840539006",
              "display": "Disease caused by severe acute respiratory syndrome coronavirus 2 (disorder)",
              "system": "http://snomed.info/sct"
            }
          ]
        },
        "extension": [
          {
            "url": "http://hl7.org/fhir/us/ecr/StructureDefinition/us-ph-determination-of-reportability-rule-extension",
            "valueString": "All results of tests for                                                  detection of SARS-CoV-2 nucleic acid in a clinical                                                  specimen by any method "
          },
          {
            "url": "http://hl7.org/fhir/us/ecr/StructureDefinition/us-ph-determination-of-reportability-rule-extension",
            "valueString": "Difficulty breathing"
          },
          {
            "url": "http://hl7.org/fhir/us/ecr/StructureDefinition/us-ph-determination-of-reportability-rule-extension",
            "valueString": "Lab test ordered for                                                  detection of SARS-CoV-2 nucleic acid in a clinical                                                  specimen by any method"
          }
        ],
        "performer": [
          {
            "reference": "Organization/8f363e21-f075-76ff-893a-2e444cc605c9",
            "display": "New York City Department of Health and                                                  Mental Hygiene"
          }
        ]
      },
      "request": {
        "method": "PUT",
        "url": "Observation/660b717b-9258-4ba2-8e5e-f446586dce22"
      }
    },
    {
      "fullUrl": "urn:uuid:ab1beccd-9344-f69c-9433-10662fa15c9e",
      "resource": {
        "resourceType": "Device",
        "id": "ab1beccd-9344-f69c-9433-10662fa15c9e",
        "identifier": [
          {
            "system": "urn:ietf:rfc:3986",
            "value": "urn:uuid:2.16.840.1.113883.3.72.5.20"
          }
        ],
        "property": [
          {
            "type": {
              "coding": [
                {
                  "system": "http://hl7.org/fhir/device-category",
                  "code": "software",
                  "display": "software"
                }
              ]
            }
          }
        ],
        "meta": {
          "source": "ecr"
        }
      },
      "request": {
        "method": "PUT",
        "url": "Device/ab1beccd-9344-f69c-9433-10662fa15c9e"
      }
    },
    {
      "fullUrl": "urn:uuid:f11a7b30-0662-47cd-89e7-8b78275622fd",
      "resource": {
        "resourceType": "Patient",
        "id": "f11a7b30-0662-47cd-89e7-8b78275622fd",
        "meta": {
          "profile": [
            "http://hl7.org/fhir/us/core/StructureDefinition/us-core-patient"
          ],
          "source": "ecr"
        },
        "identifier": [
          {
            "system": "urn:oid:2.16.840.1.113883.19.5",
            "value": "PT-470124"
          },
          {
            "system": "http://hl7.org/fhir/sid/us-ssn",
            "value": "111-11-1111"
          }
        ],
        "name": [
          {
            "use": "official",
            "family": "Everywoman",
            "given": ["Eve"]
          }
        ],
        "birthDate": "1995-12-12",
        "deceasedBoolean": false,
        "gender": "female",
        "extension": [
          {
            "url": "http://hl7.org/fhir/us/core/StructureDefinition/us-core-race",
            "extension": [
              {
                "url": "ombCategory",
                "valueCoding": {
                  "code": "2106-3",
                  "display": "WHITE"
                }
              },
              {
                "url": "text",
                "valueString": "WHITE"
              }
            ]
          },
          {
            "url": "http://hl7.org/fhir/us/core/StructureDefinition/us-core-ethnicity",
            "extension": [
              {
                "url": "ombCategory",
                "valueCoding": {
                  "code": "2135-2",
                  "display": "Hispanic or Latino"
                }
              },
              {
                "url": "text",
                "valueString": "Hispanic or Latino"
              }
            ]
          }
        ],
        "address": [
          {
            "use": "home",
            "line": ["1234 Patient Street"],
            "city": "New York City",
            "state": "NY",
            "country": "US",
            "postalCode": "10012",
            "district": "New York County"
          }
        ],
        "telecom": [
          {
            "system": "phone",
            "value": "555-555-2003",
            "use": "home"
          },
          {
            "system": "email",
            "value": "eeeverywoman@email.com",
            "use": "home"
          }
        ],
        "contact": [
          {
            "name": [
              {
                "use": "official",
                "family": "Contact",
                "given": ["Emer"],
                "prefix": ["Mr"]
              }
            ],
            "telecom": [
              {
                "system": "phone",
                "value": "+1-555-555-0987",
                "use": "mobile"
              }
            ]
          }
        ],
        "communication": [
          {
            "language": {
              "coding": [
                {
                  "system": "urn:ietf:bcp:47",
                  "code": "en",
                  "display": "English"
                }
              ]
            },
            "preferred": true
          }
        ]
      },
      "request": {
        "method": "PUT",
        "url": "Patient/f11a7b30-0662-47cd-89e7-8b78275622fd"
      }
    },
    {
      "fullUrl": "urn:uuid:",
      "resource": {
        "resourceType": "CareTeam",
        "subject": {
          "reference": "Patient/f11a7b30-0662-47cd-89e7-8b78275622fd"
        },
        "meta": {
          "source": "ecr"
        }
      }
    },
    {
      "fullUrl": "urn:uuid:",
      "resource": {
        "resourceType": "CarePlan",
        "status": "unknown",
        "intent": "proposal",
        "subject": {
          "reference": "Patient/f11a7b30-0662-47cd-89e7-8b78275622fd"
        },
        "meta": {
          "source": "ecr"
        }
      },
      "request": {
        "method": "PUT",
        "url": "CarePlan/"
      }
    },
    {
      "fullUrl": "urn:uuid:fc40cef6-a75e-4770-3661-2ab5662e9c15",
      "resource": {
        "resourceType": "Observation",
        "id": "fc40cef6-a75e-4770-3661-2ab5662e9c15",
        "meta": {
          "profile": [
            "http://hl7.org/fhir/us/core/StructureDefinition/us-core-observationresults"
          ],
          "source": "ecr"
        },
        "category": [
          {
            "coding": [
              {
                "system": "http://terminology.hl7.org/CodeSystem/observation-category",
                "code": "social-history"
              }
            ]
          }
        ],
        "status": "final",
        "code": {
          "coding": [
            {
              "code": "76689-9",
              "display": "Sex Assigned At Birth",
              "system": "http://loinc.org"
            }
          ]
        },
        "valueCodeableConcept": {
          "coding": [
            {
              "code": "F",
              "display": "Female",
              "system": "urn:oid:2.16.840.1.113883.5.1"
            }
          ]
        },
        "subject": {
          "reference": "Patient/f11a7b30-0662-47cd-89e7-8b78275622fd"
        }
      },
      "request": {
        "method": "PUT",
        "url": "Observation/fc40cef6-a75e-4770-3661-2ab5662e9c15"
      }
    },
    {
      "fullUrl": "urn:uuid:a91e1639-0e0f-adfc-5120-6dcf70c538e7",
      "resource": {
        "resourceType": "Observation",
        "id": "a91e1639-0e0f-adfc-5120-6dcf70c538e7",
        "meta": {
          "profile": [
            "http://hl7.org/fhir/us/core/StructureDefinition/us-core-observationresults"
          ],
          "source": "ecr"
        },
        "identifier": [
          {
            "system": "urn:ietf:rfc:3986",
            "value": "urn:uuid:db524287-4744-4ff8-a496-d775755a1ef2"
          }
        ],
        "category": [
          {
            "coding": [
              {
                "system": "http://terminology.hl7.org/CodeSystem/observation-category",
                "code": "social-history"
              }
            ]
          }
        ],
        "status": "final",
        "code": {
          "coding": [
            {
              "code": "364703007",
              "display": "Employment detail",
              "system": "http://snomed.info/sct"
            }
          ]
        },
        "valueCodeableConcept": {
          "coding": [
            {
              "code": "159606005",
              "display": "Sales",
              "system": "http://snomed.info/sct"
            }
          ]
        },
        "subject": {
          "reference": "Patient/f11a7b30-0662-47cd-89e7-8b78275622fd"
        }
      },
      "request": {
        "method": "PUT",
        "url": "Observation/a91e1639-0e0f-adfc-5120-6dcf70c538e7"
      }
    },
    {
      "fullUrl": "urn:uuid:",
      "resource": {
        "resourceType": "Observation",
        "meta": {
          "profile": [
            "http://hl7.org/fhir/us/core/StructureDefinition/us-core-observationresults"
          ],
          "source": "ecr"
        }
      },
      "request": {
        "method": "PUT",
        "url": "Observation/"
      }
    }
  ]
}
